{"resourceType":"Bundle","id":"tests-fa04c830-05fb-4363-af3b-2cde3cd8d26f-bundle","type":"transaction","entry":[{"resource":{"resourceType":"MeasureReport","id":"f4ef1b61-a5b3-4b68-88d5-8ae96540e09b","meta":{"profile":["http://hl7.org/fhir/us/cqfmeasures/StructureDefinition/test-case-cqfm"]},"contained":[{"resourceType":"Parameters","id":"d2523116-d416-47c9-be7f-31c827c28dae-parameters","parameter":[{"name":"subject","valueString":"73d69a14-7e70-4c9f-89e3-62da4a370fd3"}]}],"extension":[{"url":"http://hl7.org/fhir/StructureDefinition/cqf-inputParameters","valueReference":{"reference":"#d2523116-d416-47c9-be7f-31c827c28dae-parameters"}},{"url":"http://hl7.org/fhir/us/cqfmeasures/StructureDefinition/cqfm-testCaseDescription","valueMarkdown":"Patient 12 years old seen for two visits with hospice care during MP"}],"modifierExtension":[{"url":"http://hl7.org/fhir/us/cqfmeasures/StructureDefinition/cqfm-isTestCase","valueBoolean":true}],"status":"complete","type":"individual","measure":"https://madie.cms.gov/Measure/CMS138FHIRPreventiveTobaccoCessation","period":{"start":"2025-01-01","end":"2025-12-31"},"group":[{"id":"Group_1","population":[{"id":"InitialPopulation_1","code":{"coding":[{"system":"http://terminology.hl7.org/CodeSystem/measure-population","code":"initial-population","display":"Initial Population"}]},"count":1},{"id":"Denominator_1","code":{"coding":[{"system":"http://terminology.hl7.org/CodeSystem/measure-population","code":"denominator","display":"Denominator"}]},"count":1},{"id":"DenominatorExclusion_1","code":{"coding":[{"system":"http://terminology.hl7.org/CodeSystem/measure-population","code":"denominator-exclusion","display":"Denominator Exclusion"}]},"count":1},{"id":"Numerator_1","code":{"coding":[{"system":"http://terminology.hl7.org/CodeSystem/measure-population","code":"numerator","display":"Numerator"}]},"count":0}],"measureScore":{"value":1}},{"id":"Group_2","population":[{"id":"InitialPopulation_2","code":{"coding":[{"system":"http://terminology.hl7.org/CodeSystem/measure-population","code":"initial-population","display":"Initial Population"}]},"count":1},{"id":"Denominator_2","code":{"coding":[{"system":"http://terminology.hl7.org/CodeSystem/measure-population","code":"denominator","display":"Denominator"}]},"count":0},{"id":"DenominatorExclusion_2","code":{"coding":[{"system":"http://terminology.hl7.org/CodeSystem/measure-population","code":"denominator-exclusion","display":"Denominator Exclusion"}]},"count":0},{"id":"Numerator_2","code":{"coding":[{"system":"http://terminology.hl7.org/CodeSystem/measure-population","code":"numerator","display":"Numerator"}]},"count":0}],"measureScore":{"value":1}},{"id":"Group_3","population":[{"id":"InitialPopulation_3","code":{"coding":[{"system":"http://terminology.hl7.org/CodeSystem/measure-population","code":"initial-population","display":"Initial Population"}]},"count":1},{"id":"Denominator_3","code":{"coding":[{"system":"http://terminology.hl7.org/CodeSystem/measure-population","code":"denominator","display":"Denominator"}]},"count":1},{"id":"DenominatorExclusion_3","code":{"coding":[{"system":"http://terminology.hl7.org/CodeSystem/measure-population","code":"denominator-exclusion","display":"Denominator Exclusion"}]},"count":1},{"id":"Numerator_3","code":{"coding":[{"system":"http://terminology.hl7.org/CodeSystem/measure-population","code":"numerator","display":"Numerator"}]},"count":0}],"measureScore":{"value":1}}],"evaluatedResource":[{"reference":"Patient/fa04c830-05fb-4363-af3b-2cde3cd8d26f"},{"reference":"Encounter/8bbec951-a928-4c46-a545-0851d0dbe866"},{"reference":"Encounter/01f22b91-418b-49b3-b6d1-9e2efbe76346"},{"reference":"Procedure/a899c83a-87c6-4115-a0b0-f7b56647e0ce"}]},"request":{"method":"PUT","url":"MeasureReport/f4ef1b61-a5b3-4b68-88d5-8ae96540e09b"}},{"resource":{"resourceType":"Encounter","id":"01f22b91-418b-49b3-b6d1-9e2efbe76346","meta":{"profile":["http://hl7.org/fhir/us/qicore/StructureDefinition/qicore-encounter"]},"status":"finished","class":{"system":"http://terminology.hl7.org/CodeSystem/v3-ActCode","code":"AMB","display":"ambulatory"},"type":[{"coding":[{"system":"http://snomed.info/sct","code":"41375007","display":"Medical evaluation of hearing problem (procedure)"}]}],"subject":{"reference":"Patient/fa04c830-05fb-4363-af3b-2cde3cd8d26f"},"period":{"start":"2025-01-01T01:00:00.000Z","end":"2025-01-01T01:15:00.000Z"}},"request":{"method":"PUT","url":"Encounter/01f22b91-418b-49b3-b6d1-9e2efbe76346"}},{"resource":{"resourceType":"Encounter","id":"8bbec951-a928-4c46-a545-0851d0dbe866","meta":{"profile":["http://hl7.org/fhir/us/qicore/StructureDefinition/qicore-encounter"]},"status":"finished","class":{"system":"http://terminology.hl7.org/CodeSystem/v3-ActCode","code":"AMB","display":"ambulatory"},"type":[{"coding":[{"system":"http://snomed.info/sct","code":"185463005","display":"Visit out of hours (procedure)"}]}],"subject":{"reference":"Patient/fa04c830-05fb-4363-af3b-2cde3cd8d26f"},"period":{"start":"2025-01-01T01:00:00.000Z","end":"2025-01-01T01:15:00.000Z"}},"request":{"method":"PUT","url":"Encounter/8bbec951-a928-4c46-a545-0851d0dbe866"}},{"resource":{"resourceType":"Procedure","id":"a899c83a-87c6-4115-a0b0-f7b56647e0ce","meta":{"profile":["http://hl7.org/fhir/us/qicore/StructureDefinition/qicore-procedure"]},"extension":[{"url":"http://hl7.org/fhir/us/qicore/StructureDefinition/qicore-recorded","valueDateTime":"2025-01-01T23:00:00.000Z"}],"status":"completed","code":{"coding":[{"system":"http://snomed.info/sct","code":"385763009","display":"Hospice care (regime/therapy)"}]},"subject":{"reference":"Patient/fa04c830-05fb-4363-af3b-2cde3cd8d26f"},"performedPeriod":{"start":"2025-01-01T23:00:00.000Z","end":"2025-01-01T23:00:00.000Z"}},"request":{"method":"PUT","url":"Procedure/a899c83a-87c6-4115-a0b0-f7b56647e0ce"}},{"resource":{"resourceType":"Patient","id":"fa04c830-05fb-4363-af3b-2cde3cd8d26f","meta":{"profile":["http://hl7.org/fhir/us/qicore/StructureDefinition/qicore-patient"]},"extension":[{"url":"http://hl7.org/fhir/us/core/StructureDefinition/us-core-race","extension":[{"url":"ombCategory","valueCoding":{"system":"urn:oid:2.16.840.1.113883.6.238","code":"2028-9","display":"Asian"}},{"url":"text","valueString":"Asian"}]},{"url":"http://hl7.org/fhir/us/core/StructureDefinition/us-core-ethnicity","extension":[{"url":"ombCategory","valueCoding":{"system":"urn:oid:2.16.840.1.113883.6.238","code":"2135-2","display":"Hispanic or Latino"}},{"url":"text","valueString":"Hispanic or Latino"}]}],"identifier":[{"system":"http://hospital.smarthealthit.org","value":"999999995"}],"name":[{"family":"Hollywood","given":["Frankie"]}],"gender":"female","birthDate":"2012-12-31"},"request":{"method":"PUT","url":"Patient/fa04c830-05fb-4363-af3b-2cde3cd8d26f"}}]}