{"resourceType":"Bundle","id":"tests-7660a26d-ae80-44c8-89a7-cdaeaf07c20c-bundle","type":"transaction","entry":[{"resource":{"resourceType":"MeasureReport","id":"1eb5ef5c-bf0f-47d5-830d-4ee1b3e58d92","meta":{"profile":["http://hl7.org/fhir/us/cqfmeasures/StructureDefinition/test-case-cqfm"]},"contained":[{"resourceType":"Parameters","id":"674039f2-94d9-41fa-aef7-d13a2210a0f2-parameters","parameter":[{"name":"subject","valueString":"9fcf1018-bacd-44e3-af16-8d715af253a2"}]}],"extension":[{"url":"http://hl7.org/fhir/StructureDefinition/cqf-inputParameters","valueReference":{"reference":"#674039f2-94d9-41fa-aef7-d13a2210a0f2-parameters"}},{"url":"http://hl7.org/fhir/us/cqfmeasures/StructureDefinition/cqfm-testCaseDescription","valueMarkdown":"Patient 12 years old with typo in Medication Request code of \"15\""}],"modifierExtension":[{"url":"http://hl7.org/fhir/us/cqfmeasures/StructureDefinition/cqfm-isTestCase","valueBoolean":true}],"status":"complete","type":"individual","measure":"https://madie.cms.gov/Measure/CMS138FHIRPreventiveTobaccoCessation","period":{"start":"2025-01-01","end":"2025-12-31"},"group":[{"id":"Group_1","population":[{"id":"InitialPopulation_1","code":{"coding":[{"system":"http://terminology.hl7.org/CodeSystem/measure-population","code":"initial-population","display":"Initial Population"}]},"count":1},{"id":"Denominator_1","code":{"coding":[{"system":"http://terminology.hl7.org/CodeSystem/measure-population","code":"denominator","display":"Denominator"}]},"count":1},{"id":"DenominatorExclusion_1","code":{"coding":[{"system":"http://terminology.hl7.org/CodeSystem/measure-population","code":"denominator-exclusion","display":"Denominator Exclusion"}]},"count":0},{"id":"Numerator_1","code":{"coding":[{"system":"http://terminology.hl7.org/CodeSystem/measure-population","code":"numerator","display":"Numerator"}]},"count":1}],"measureScore":{"value":1}},{"id":"Group_2","population":[{"id":"InitialPopulation_2","code":{"coding":[{"system":"http://terminology.hl7.org/CodeSystem/measure-population","code":"initial-population","display":"Initial Population"}]},"count":1},{"id":"Denominator_2","code":{"coding":[{"system":"http://terminology.hl7.org/CodeSystem/measure-population","code":"denominator","display":"Denominator"}]},"count":1},{"id":"DenominatorExclusion_2","code":{"coding":[{"system":"http://terminology.hl7.org/CodeSystem/measure-population","code":"denominator-exclusion","display":"Denominator Exclusion"}]},"count":0},{"id":"Numerator_2","code":{"coding":[{"system":"http://terminology.hl7.org/CodeSystem/measure-population","code":"numerator","display":"Numerator"}]},"count":0}],"measureScore":{"value":1}},{"id":"Group_3","population":[{"id":"InitialPopulation_3","code":{"coding":[{"system":"http://terminology.hl7.org/CodeSystem/measure-population","code":"initial-population","display":"Initial Population"}]},"count":1},{"id":"Denominator_3","code":{"coding":[{"system":"http://terminology.hl7.org/CodeSystem/measure-population","code":"denominator","display":"Denominator"}]},"count":1},{"id":"DenominatorExclusion_3","code":{"coding":[{"system":"http://terminology.hl7.org/CodeSystem/measure-population","code":"denominator-exclusion","display":"Denominator Exclusion"}]},"count":0},{"id":"Numerator_3","code":{"coding":[{"system":"http://terminology.hl7.org/CodeSystem/measure-population","code":"numerator","display":"Numerator"}]},"count":0}],"measureScore":{"value":1}}],"evaluatedResource":[{"reference":"Patient/7660a26d-ae80-44c8-89a7-cdaeaf07c20c"},{"reference":"Encounter/92485c1d-b7bd-4c61-8c11-9b09ff70fa7f"},{"reference":"Encounter/7b945239-296c-4045-98ac-dc131885af62"},{"reference":"Observation/9ba78b01-b6f5-4600-b08e-d214804202a6"},{"reference":"MedicationRequest/1dd3fca5-67ae-4e78-adc7-d3ffdf0fcf95"}]},"request":{"method":"PUT","url":"MeasureReport/1eb5ef5c-bf0f-47d5-830d-4ee1b3e58d92"}},{"resource":{"resourceType":"Encounter","id":"92485c1d-b7bd-4c61-8c11-9b09ff70fa7f","meta":{"profile":["http://hl7.org/fhir/us/qicore/StructureDefinition/qicore-encounter"]},"status":"finished","class":{"system":"http://terminology.hl7.org/CodeSystem/v3-ActCode","code":"AMB","display":"ambulatory"},"type":[{"coding":[{"system":"http://snomed.info/sct","code":"185463005","display":"Visit out of hours (procedure)"}]}],"subject":{"reference":"Patient/7660a26d-ae80-44c8-89a7-cdaeaf07c20c"},"period":{"start":"2025-01-01T01:00:00.000Z","end":"2025-01-01T01:15:00.000Z"}},"request":{"method":"PUT","url":"Encounter/92485c1d-b7bd-4c61-8c11-9b09ff70fa7f"}},{"resource":{"resourceType":"Encounter","id":"7b945239-296c-4045-98ac-dc131885af62","meta":{"profile":["http://hl7.org/fhir/us/qicore/StructureDefinition/qicore-encounter"]},"status":"finished","class":{"system":"http://terminology.hl7.org/CodeSystem/v3-ActCode","code":"AMB","display":"ambulatory"},"type":[{"coding":[{"system":"http://snomed.info/sct","code":"41375007","display":"Medical evaluation of hearing problem (procedure)"}]}],"subject":{"reference":"Patient/7660a26d-ae80-44c8-89a7-cdaeaf07c20c"},"period":{"start":"2025-01-01T01:00:00.000Z","end":"2025-01-01T01:15:00.000Z"}},"request":{"method":"PUT","url":"Encounter/7b945239-296c-4045-98ac-dc131885af62"}},{"resource":{"resourceType":"Patient","id":"7660a26d-ae80-44c8-89a7-cdaeaf07c20c","meta":{"profile":["http://hl7.org/fhir/us/qicore/StructureDefinition/qicore-patient"]},"extension":[{"url":"http://hl7.org/fhir/us/core/StructureDefinition/us-core-race","extension":[{"url":"ombCategory","valueCoding":{"system":"urn:oid:2.16.840.1.113883.6.238","code":"2028-9","display":"Asian"}},{"url":"text","valueString":"Asian"}]},{"url":"http://hl7.org/fhir/us/core/StructureDefinition/us-core-ethnicity","extension":[{"url":"ombCategory","valueCoding":{"system":"urn:oid:2.16.840.1.113883.6.238","code":"2135-2","display":"Hispanic or Latino"}},{"url":"text","valueString":"Hispanic or Latino"}]}],"identifier":[{"system":"http://hospital.smarthealthit.org","value":"999999995"}],"name":[{"family":"Hollywood","given":["Frankie"]}],"gender":"female","birthDate":"2012-12-31"},"request":{"method":"PUT","url":"Patient/7660a26d-ae80-44c8-89a7-cdaeaf07c20c"}},{"resource":{"resourceType":"MedicationRequest","id":"1dd3fca5-67ae-4e78-adc7-d3ffdf0fcf95","meta":{"profile":["http://hl7.org/fhir/us/qicore/StructureDefinition/qicore-medicationrequest"]},"status":"active","intent":"order","medicationCodeableConcept":{"coding":[{"system":"http://www.nlm.nih.gov/research/umls/rxnorm","code":"15","display":"topiramate 50 MG Oral Tablet","userSelected":true}]},"subject":{"reference":"Patient/7660a26d-ae80-44c8-89a7-cdaeaf07c20c"},"authoredOn":"2025-01-01T01:00:00.000Z","requester":{"reference":"Practitioner/example"}},"request":{"method":"PUT","url":"MedicationRequest/1dd3fca5-67ae-4e78-adc7-d3ffdf0fcf95"}},{"resource":{"resourceType":"Observation","id":"9ba78b01-b6f5-4600-b08e-d214804202a6","meta":{"profile":["http://hl7.org/fhir/us/core/StructureDefinition/us-core-smokingstatus"]},"status":"final","category":[{"coding":[{"system":"http://terminology.hl7.org/CodeSystem/observation-category","code":"survey","display":"survey"}],"text":"survey"}],"code":{"coding":[{"system":"http://loinc.org","code":"39240-7","display":"Tobacco use status CPHS"}]},"subject":{"reference":"Patient/7660a26d-ae80-44c8-89a7-cdaeaf07c20c"},"effectiveDateTime":"2025-01-01T01:00:00.000Z","valueCodeableConcept":{"coding":[{"system":"http://snomed.info/sct","code":"110483000","display":"Tobacco user (finding)"}]}},"request":{"method":"PUT","url":"Observation/9ba78b01-b6f5-4600-b08e-d214804202a6"}}]}