{"resourceType":"Bundle","id":"tests-6996128b-dbd1-424a-80a4-d555e02d27df-bundle","type":"transaction","entry":[{"resource":{"resourceType":"MeasureReport","id":"75170106-3da5-429a-be39-e97dd1cf3b30","meta":{"profile":["http://hl7.org/fhir/us/cqfmeasures/StructureDefinition/test-case-cqfm"]},"contained":[{"resourceType":"Parameters","id":"84195d6f-7334-48d2-a405-535e0efb2d9b-parameters","parameter":[{"name":"subject","valueString":"eb9e68a6-6598-4881-84a3-16128e0dfad1"}]}],"extension":[{"url":"http://hl7.org/fhir/StructureDefinition/cqf-inputParameters","valueReference":{"reference":"#84195d6f-7334-48d2-a405-535e0efb2d9b-parameters"}},{"url":"http://hl7.org/fhir/us/cqfmeasures/StructureDefinition/cqfm-testCaseDescription","valueMarkdown":"Patient 12 years old seen for two visits before MP"}],"modifierExtension":[{"url":"http://hl7.org/fhir/us/cqfmeasures/StructureDefinition/cqfm-isTestCase","valueBoolean":true}],"status":"complete","type":"individual","measure":"https://madie.cms.gov/Measure/CMS138FHIRPreventiveTobaccoCessation","period":{"start":"2025-01-01","end":"2025-12-31"},"group":[{"id":"Group_1","population":[{"id":"InitialPopulation_1","code":{"coding":[{"system":"http://terminology.hl7.org/CodeSystem/measure-population","code":"initial-population","display":"Initial Population"}]},"count":0},{"id":"Denominator_1","code":{"coding":[{"system":"http://terminology.hl7.org/CodeSystem/measure-population","code":"denominator","display":"Denominator"}]},"count":0},{"id":"DenominatorExclusion_1","code":{"coding":[{"system":"http://terminology.hl7.org/CodeSystem/measure-population","code":"denominator-exclusion","display":"Denominator Exclusion"}]},"count":0},{"id":"Numerator_1","code":{"coding":[{"system":"http://terminology.hl7.org/CodeSystem/measure-population","code":"numerator","display":"Numerator"}]},"count":0}],"measureScore":{"value":1}},{"id":"Group_2","population":[{"id":"InitialPopulation_2","code":{"coding":[{"system":"http://terminology.hl7.org/CodeSystem/measure-population","code":"initial-population","display":"Initial Population"}]},"count":0},{"id":"Denominator_2","code":{"coding":[{"system":"http://terminology.hl7.org/CodeSystem/measure-population","code":"denominator","display":"Denominator"}]},"count":0},{"id":"DenominatorExclusion_2","code":{"coding":[{"system":"http://terminology.hl7.org/CodeSystem/measure-population","code":"denominator-exclusion","display":"Denominator Exclusion"}]},"count":0},{"id":"Numerator_2","code":{"coding":[{"system":"http://terminology.hl7.org/CodeSystem/measure-population","code":"numerator","display":"Numerator"}]},"count":0}],"measureScore":{"value":1}},{"id":"Group_3","population":[{"id":"InitialPopulation_3","code":{"coding":[{"system":"http://terminology.hl7.org/CodeSystem/measure-population","code":"initial-population","display":"Initial Population"}]},"count":0},{"id":"Denominator_3","code":{"coding":[{"system":"http://terminology.hl7.org/CodeSystem/measure-population","code":"denominator","display":"Denominator"}]},"count":0},{"id":"DenominatorExclusion_3","code":{"coding":[{"system":"http://terminology.hl7.org/CodeSystem/measure-population","code":"denominator-exclusion","display":"Denominator Exclusion"}]},"count":0},{"id":"Numerator_3","code":{"coding":[{"system":"http://terminology.hl7.org/CodeSystem/measure-population","code":"numerator","display":"Numerator"}]},"count":0}],"measureScore":{"value":1}}],"evaluatedResource":[{"reference":"Patient/6996128b-dbd1-424a-80a4-d555e02d27df"},{"reference":"Encounter/c67a20fc-be35-40ea-92f5-f394e60fddd8"},{"reference":"Encounter/70025772-e94e-47ec-8874-788d1b34fdae"}]},"request":{"method":"PUT","url":"MeasureReport/75170106-3da5-429a-be39-e97dd1cf3b30"}},{"resource":{"resourceType":"Encounter","id":"c67a20fc-be35-40ea-92f5-f394e60fddd8","meta":{"profile":["http://hl7.org/fhir/us/qicore/StructureDefinition/qicore-encounter"]},"status":"finished","class":{"system":"http://terminology.hl7.org/CodeSystem/v3-ActCode","code":"AMB","display":"ambulatory"},"type":[{"coding":[{"system":"http://snomed.info/sct","code":"10197000","display":"Psychiatric interview and evaluation (procedure)"}]}],"subject":{"reference":"Patient/6996128b-dbd1-424a-80a4-d555e02d27df"},"period":{"start":"2024-12-31T01:00:00.000Z","end":"2024-12-31T01:15:00.000Z"}},"request":{"method":"PUT","url":"Encounter/c67a20fc-be35-40ea-92f5-f394e60fddd8"}},{"resource":{"resourceType":"Encounter","id":"70025772-e94e-47ec-8874-788d1b34fdae","meta":{"profile":["http://hl7.org/fhir/us/qicore/StructureDefinition/qicore-encounter"]},"status":"finished","class":{"system":"http://terminology.hl7.org/CodeSystem/v3-ActCode","code":"AMB","display":"ambulatory"},"type":[{"coding":[{"system":"http://snomed.info/sct","code":"183381005","display":"General psychotherapy (regime/therapy)"}]}],"subject":{"reference":"Patient/6996128b-dbd1-424a-80a4-d555e02d27df"},"period":{"start":"2024-12-31T01:00:00.000Z","end":"2024-12-31T01:15:00.000Z"}},"request":{"method":"PUT","url":"Encounter/70025772-e94e-47ec-8874-788d1b34fdae"}},{"resource":{"resourceType":"Patient","id":"6996128b-dbd1-424a-80a4-d555e02d27df","meta":{"profile":["http://hl7.org/fhir/us/qicore/StructureDefinition/qicore-patient"]},"extension":[{"url":"http://hl7.org/fhir/us/core/StructureDefinition/us-core-race","extension":[{"url":"ombCategory","valueCoding":{"system":"urn:oid:2.16.840.1.113883.6.238","code":"2028-9","display":"Asian"}},{"url":"text","valueString":"Asian"}]},{"url":"http://hl7.org/fhir/us/core/StructureDefinition/us-core-ethnicity","extension":[{"url":"ombCategory","valueCoding":{"system":"urn:oid:2.16.840.1.113883.6.238","code":"2135-2","display":"Hispanic or Latino"}},{"url":"text","valueString":"Hispanic or Latino"}]}],"identifier":[{"system":"http://hospital.smarthealthit.org","value":"999999995"}],"name":[{"family":"Hollywood","given":["Frankie"]}],"gender":"female","birthDate":"2012-12-31"},"request":{"method":"PUT","url":"Patient/6996128b-dbd1-424a-80a4-d555e02d27df"}}]}